Frequency  Raman intensity
  350.000  1.3130e+01
  351.000  1.3158e+01
  352.000  1.3185e+01
  353.000  1.3213e+01
  354.000  1.3241e+01
  355.000  1.3268e+01
  356.000  1.3296e+01
  357.000  1.3324e+01
  358.000  1.3352e+01
  359.000  1.3381e+01
  360.000  1.3409e+01
  361.000  1.3437e+01
  362.000  1.3466e+01
  363.000  1.3494e+01
  364.000  1.3523e+01
  365.000  1.3552e+01
  366.000  1.3580e+01
  367.000  1.3609e+01
  368.000  1.3638e+01
  369.000  1.3667e+01
  370.000  1.3697e+01
  371.000  1.3726e+01
  372.000  1.3755e+01
  373.000  1.3785e+01
  374.000  1.3814e+01
  375.000  1.3844e+01
  376.000  1.3874e+01
  377.000  1.3903e+01
  378.000  1.3933e+01
  379.000  1.3963e+01
  380.000  1.3994e+01
  381.000  1.4024e+01
  382.000  1.4054e+01
  383.000  1.4085e+01
  384.000  1.4115e+01
  385.000  1.4146e+01
  386.000  1.4176e+01
  387.000  1.4207e+01
  388.000  1.4238e+01
  389.000  1.4269e+01
  390.000  1.4300e+01
  391.000  1.4332e+01
  392.000  1.4363e+01
  393.000  1.4394e+01
  394.000  1.4426e+01
  395.000  1.4458e+01
  396.000  1.4489e+01
  397.000  1.4521e+01
  398.000  1.4553e+01
  399.000  1.4585e+01
  400.000  1.4617e+01
  401.000  1.4650e+01
  402.000  1.4682e+01
  403.000  1.4715e+01
  404.000  1.4747e+01
  405.000  1.4780e+01
  406.000  1.4813e+01
  407.000  1.4846e+01
  408.000  1.4879e+01
  409.000  1.4912e+01
  410.000  1.4945e+01
  411.000  1.4979e+01
  412.000  1.5012e+01
  413.000  1.5046e+01
  414.000  1.5079e+01
  415.000  1.5113e+01
  416.000  1.5147e+01
  417.000  1.5181e+01
  418.000  1.5215e+01
  419.000  1.5250e+01
  420.000  1.5284e+01
  421.000  1.5319e+01
  422.000  1.5353e+01
  423.000  1.5388e+01
  424.000  1.5423e+01
  425.000  1.5458e+01
  426.000  1.5493e+01
  427.000  1.5528e+01
  428.000  1.5563e+01
  429.000  1.5599e+01
  430.000  1.5634e+01
  431.000  1.5670e+01
  432.000  1.5706e+01
  433.000  1.5742e+01
  434.000  1.5778e+01
  435.000  1.5814e+01
  436.000  1.5851e+01
  437.000  1.5887e+01
  438.000  1.5924e+01
  439.000  1.5960e+01
  440.000  1.5997e+01
  441.000  1.6034e+01
  442.000  1.6071e+01
  443.000  1.6108e+01
  444.000  1.6146e+01
  445.000  1.6183e+01
  446.000  1.6221e+01
  447.000  1.6259e+01
  448.000  1.6297e+01
  449.000  1.6335e+01
  450.000  1.6373e+01
  451.000  1.6411e+01
  452.000  1.6449e+01
  453.000  1.6488e+01
  454.000  1.6527e+01
  455.000  1.6565e+01
  456.000  1.6604e+01
  457.000  1.6643e+01
  458.000  1.6683e+01
  459.000  1.6722e+01
  460.000  1.6761e+01
  461.000  1.6801e+01
  462.000  1.6841e+01
  463.000  1.6881e+01
  464.000  1.6921e+01
  465.000  1.6961e+01
  466.000  1.7001e+01
  467.000  1.7042e+01
  468.000  1.7083e+01
  469.000  1.7123e+01
  470.000  1.7164e+01
  471.000  1.7205e+01
  472.000  1.7247e+01
  473.000  1.7288e+01
  474.000  1.7330e+01
  475.000  1.7371e+01
  476.000  1.7413e+01
  477.000  1.7455e+01
  478.000  1.7497e+01
  479.000  1.7539e+01
  480.000  1.7582e+01
  481.000  1.7624e+01
  482.000  1.7667e+01
  483.000  1.7710e+01
  484.000  1.7753e+01
  485.000  1.7796e+01
  486.000  1.7840e+01
  487.000  1.7883e+01
  488.000  1.7927e+01
  489.000  1.7971e+01
  490.000  1.8015e+01
  491.000  1.8059e+01
  492.000  1.8103e+01
  493.000  1.8148e+01
  494.000  1.8193e+01
  495.000  1.8237e+01
  496.000  1.8282e+01
  497.000  1.8328e+01
  498.000  1.8373e+01
  499.000  1.8418e+01
  500.000  1.8464e+01
  501.000  1.8510e+01
  502.000  1.8556e+01
  503.000  1.8602e+01
  504.000  1.8648e+01
  505.000  1.8695e+01
  506.000  1.8742e+01
  507.000  1.8788e+01
  508.000  1.8836e+01
  509.000  1.8883e+01
  510.000  1.8930e+01
  511.000  1.8978e+01
  512.000  1.9026e+01
  513.000  1.9073e+01
  514.000  1.9122e+01
  515.000  1.9170e+01
  516.000  1.9218e+01
  517.000  1.9267e+01
  518.000  1.9316e+01
  519.000  1.9365e+01
  520.000  1.9414e+01
  521.000  1.9464e+01
  522.000  1.9513e+01
  523.000  1.9563e+01
  524.000  1.9613e+01
  525.000  1.9663e+01
  526.000  1.9714e+01
  527.000  1.9764e+01
  528.000  1.9815e+01
  529.000  1.9866e+01
  530.000  1.9917e+01
  531.000  1.9968e+01
  532.000  2.0020e+01
  533.000  2.0072e+01
  534.000  2.0124e+01
  535.000  2.0176e+01
  536.000  2.0228e+01
  537.000  2.0281e+01
  538.000  2.0334e+01
  539.000  2.0387e+01
  540.000  2.0440e+01
  541.000  2.0493e+01
  542.000  2.0547e+01
  543.000  2.0601e+01
  544.000  2.0655e+01
  545.000  2.0709e+01
  546.000  2.0763e+01
  547.000  2.0818e+01
  548.000  2.0873e+01
  549.000  2.0928e+01
  550.000  2.0983e+01
  551.000  2.1039e+01
  552.000  2.1095e+01
  553.000  2.1151e+01
  554.000  2.1207e+01
  555.000  2.1263e+01
  556.000  2.1320e+01
  557.000  2.1377e+01
  558.000  2.1434e+01
  559.000  2.1491e+01
  560.000  2.1549e+01
  561.000  2.1607e+01
  562.000  2.1665e+01
  563.000  2.1723e+01
  564.000  2.1781e+01
  565.000  2.1840e+01
  566.000  2.1899e+01
  567.000  2.1958e+01
  568.000  2.2018e+01
  569.000  2.2077e+01
  570.000  2.2137e+01
  571.000  2.2198e+01
  572.000  2.2258e+01
  573.000  2.2319e+01
  574.000  2.2380e+01
  575.000  2.2441e+01
  576.000  2.2502e+01
  577.000  2.2564e+01
  578.000  2.2626e+01
  579.000  2.2688e+01
  580.000  2.2750e+01
  581.000  2.2813e+01
  582.000  2.2876e+01
  583.000  2.2939e+01
  584.000  2.3003e+01
  585.000  2.3067e+01
  586.000  2.3131e+01
  587.000  2.3195e+01
  588.000  2.3259e+01
  589.000  2.3324e+01
  590.000  2.3389e+01
  591.000  2.3455e+01
  592.000  2.3520e+01
  593.000  2.3586e+01
  594.000  2.3652e+01
  595.000  2.3719e+01
  596.000  2.3786e+01
  597.000  2.3853e+01
  598.000  2.3920e+01
  599.000  2.3988e+01
  600.000  2.4056e+01
  601.000  2.4124e+01
  602.000  2.4192e+01
  603.000  2.4261e+01
  604.000  2.4330e+01
  605.000  2.4399e+01
  606.000  2.4469e+01
  607.000  2.4539e+01
  608.000  2.4609e+01
  609.000  2.4680e+01
  610.000  2.4751e+01
  611.000  2.4822e+01
  612.000  2.4893e+01
  613.000  2.4965e+01
  614.000  2.5037e+01
  615.000  2.5109e+01
  616.000  2.5182e+01
  617.000  2.5255e+01
  618.000  2.5329e+01
  619.000  2.5402e+01
  620.000  2.5476e+01
  621.000  2.5551e+01
  622.000  2.5625e+01
  623.000  2.5700e+01
  624.000  2.5775e+01
  625.000  2.5851e+01
  626.000  2.5927e+01
  627.000  2.6003e+01
  628.000  2.6080e+01
  629.000  2.6157e+01
  630.000  2.6234e+01
  631.000  2.6312e+01
  632.000  2.6390e+01
  633.000  2.6468e+01
  634.000  2.6547e+01
  635.000  2.6626e+01
  636.000  2.6705e+01
  637.000  2.6785e+01
  638.000  2.6865e+01
  639.000  2.6946e+01
  640.000  2.7027e+01
  641.000  2.7108e+01
  642.000  2.7189e+01
  643.000  2.7271e+01
  644.000  2.7354e+01
  645.000  2.7436e+01
  646.000  2.7519e+01
  647.000  2.7603e+01
  648.000  2.7687e+01
  649.000  2.7771e+01
  650.000  2.7855e+01
  651.000  2.7940e+01
  652.000  2.8026e+01
  653.000  2.8111e+01
  654.000  2.8198e+01
  655.000  2.8284e+01
  656.000  2.8371e+01
  657.000  2.8458e+01
  658.000  2.8546e+01
  659.000  2.8634e+01
  660.000  2.8723e+01
  661.000  2.8812e+01
  662.000  2.8901e+01
  663.000  2.8991e+01
  664.000  2.9081e+01
  665.000  2.9172e+01
  666.000  2.9263e+01
  667.000  2.9355e+01
  668.000  2.9446e+01
  669.000  2.9539e+01
  670.000  2.9632e+01
  671.000  2.9725e+01
  672.000  2.9818e+01
  673.000  2.9913e+01
  674.000  3.0007e+01
  675.000  3.0102e+01
  676.000  3.0198e+01
  677.000  3.0294e+01
  678.000  3.0390e+01
  679.000  3.0487e+01
  680.000  3.0584e+01
  681.000  3.0682e+01
  682.000  3.0780e+01
  683.000  3.0879e+01
  684.000  3.0978e+01
  685.000  3.1078e+01
  686.000  3.1178e+01
  687.000  3.1278e+01
  688.000  3.1380e+01
  689.000  3.1481e+01
  690.000  3.1583e+01
  691.000  3.1686e+01
  692.000  3.1789e+01
  693.000  3.1893e+01
  694.000  3.1997e+01
  695.000  3.2101e+01
  696.000  3.2206e+01
  697.000  3.2312e+01
  698.000  3.2418e+01
  699.000  3.2525e+01
  700.000  3.2632e+01
  701.000  3.2740e+01
  702.000  3.2848e+01
  703.000  3.2957e+01
  704.000  3.3066e+01
  705.000  3.3176e+01
  706.000  3.3287e+01
  707.000  3.3398e+01
  708.000  3.3509e+01
  709.000  3.3622e+01
  710.000  3.3734e+01
  711.000  3.3847e+01
  712.000  3.3961e+01
  713.000  3.4076e+01
  714.000  3.4191e+01
  715.000  3.4306e+01
  716.000  3.4422e+01
  717.000  3.4539e+01
  718.000  3.4657e+01
  719.000  3.4775e+01
  720.000  3.4893e+01
  721.000  3.5012e+01
  722.000  3.5132e+01
  723.000  3.5252e+01
  724.000  3.5373e+01
  725.000  3.5495e+01
  726.000  3.5617e+01
  727.000  3.5740e+01
  728.000  3.5864e+01
  729.000  3.5988e+01
  730.000  3.6113e+01
  731.000  3.6238e+01
  732.000  3.6364e+01
  733.000  3.6491e+01
  734.000  3.6618e+01
  735.000  3.6747e+01
  736.000  3.6875e+01
  737.000  3.7005e+01
  738.000  3.7135e+01
  739.000  3.7266e+01
  740.000  3.7397e+01
  741.000  3.7530e+01
  742.000  3.7662e+01
  743.000  3.7796e+01
  744.000  3.7930e+01
  745.000  3.8065e+01
  746.000  3.8201e+01
  747.000  3.8338e+01
  748.000  3.8475e+01
  749.000  3.8613e+01
  750.000  3.8752e+01
  751.000  3.8891e+01
  752.000  3.9031e+01
  753.000  3.9172e+01
  754.000  3.9314e+01
  755.000  3.9457e+01
  756.000  3.9600e+01
  757.000  3.9744e+01
  758.000  3.9889e+01
  759.000  4.0035e+01
  760.000  4.0181e+01
  761.000  4.0328e+01
  762.000  4.0476e+01
  763.000  4.0625e+01
  764.000  4.0775e+01
  765.000  4.0926e+01
  766.000  4.1077e+01
  767.000  4.1229e+01
  768.000  4.1382e+01
  769.000  4.1536e+01
  770.000  4.1691e+01
  771.000  4.1847e+01
  772.000  4.2003e+01
  773.000  4.2161e+01
  774.000  4.2319e+01
  775.000  4.2478e+01
  776.000  4.2638e+01
  777.000  4.2799e+01
  778.000  4.2961e+01
  779.000  4.3124e+01
  780.000  4.3288e+01
  781.000  4.3452e+01
  782.000  4.3618e+01
  783.000  4.3785e+01
  784.000  4.3952e+01
  785.000  4.4121e+01
  786.000  4.4290e+01
  787.000  4.4461e+01
  788.000  4.4632e+01
  789.000  4.4804e+01
  790.000  4.4978e+01
  791.000  4.5152e+01
  792.000  4.5328e+01
  793.000  4.5504e+01
  794.000  4.5682e+01
  795.000  4.5860e+01
  796.000  4.6040e+01
  797.000  4.6221e+01
  798.000  4.6402e+01
  799.000  4.6585e+01
  800.000  4.6769e+01
  801.000  4.6954e+01
  802.000  4.7140e+01
  803.000  4.7327e+01
  804.000  4.7515e+01
  805.000  4.7705e+01
  806.000  4.7895e+01
  807.000  4.8087e+01
  808.000  4.8280e+01
  809.000  4.8474e+01
  810.000  4.8669e+01
  811.000  4.8866e+01
  812.000  4.9063e+01
  813.000  4.9262e+01
  814.000  4.9462e+01
  815.000  4.9663e+01
  816.000  4.9865e+01
  817.000  5.0069e+01
  818.000  5.0274e+01
  819.000  5.0480e+01
  820.000  5.0688e+01
  821.000  5.0896e+01
  822.000  5.1106e+01
  823.000  5.1318e+01
  824.000  5.1530e+01
  825.000  5.1744e+01
  826.000  5.1959e+01
  827.000  5.2176e+01
  828.000  5.2394e+01
  829.000  5.2613e+01
  830.000  5.2834e+01
  831.000  5.3056e+01
  832.000  5.3280e+01
  833.000  5.3505e+01
  834.000  5.3731e+01
  835.000  5.3959e+01
  836.000  5.4188e+01
  837.000  5.4419e+01
  838.000  5.4651e+01
  839.000  5.4885e+01
  840.000  5.5120e+01
  841.000  5.5357e+01
  842.000  5.5595e+01
  843.000  5.5835e+01
  844.000  5.6076e+01
  845.000  5.6319e+01
  846.000  5.6564e+01
  847.000  5.6810e+01
  848.000  5.7057e+01
  849.000  5.7307e+01
  850.000  5.7558e+01
  851.000  5.7810e+01
  852.000  5.8064e+01
  853.000  5.8320e+01
  854.000  5.8578e+01
  855.000  5.8837e+01
  856.000  5.9098e+01
  857.000  5.9361e+01
  858.000  5.9626e+01
  859.000  5.9892e+01
  860.000  6.0160e+01
  861.000  6.0430e+01
  862.000  6.0702e+01
  863.000  6.0976e+01
  864.000  6.1251e+01
  865.000  6.1528e+01
  866.000  6.1808e+01
  867.000  6.2089e+01
  868.000  6.2372e+01
  869.000  6.2657e+01
  870.000  6.2944e+01
  871.000  6.3233e+01
  872.000  6.3524e+01
  873.000  6.3817e+01
  874.000  6.4111e+01
  875.000  6.4408e+01
  876.000  6.4708e+01
  877.000  6.5009e+01
  878.000  6.5312e+01
  879.000  6.5617e+01
  880.000  6.5925e+01
  881.000  6.6235e+01
  882.000  6.6546e+01
  883.000  6.6861e+01
  884.000  6.7177e+01
  885.000  6.7495e+01
  886.000  6.7816e+01
  887.000  6.8139e+01
  888.000  6.8465e+01
  889.000  6.8793e+01
  890.000  6.9123e+01
  891.000  6.9455e+01
  892.000  6.9790e+01
  893.000  7.0128e+01
  894.000  7.0467e+01
  895.000  7.0810e+01
  896.000  7.1155e+01
  897.000  7.1502e+01
  898.000  7.1852e+01
  899.000  7.2204e+01
  900.000  7.2559e+01
  901.000  7.2917e+01
  902.000  7.3277e+01
  903.000  7.3640e+01
  904.000  7.4006e+01
  905.000  7.4374e+01
  906.000  7.4745e+01
  907.000  7.5119e+01
  908.000  7.5496e+01
  909.000  7.5876e+01
  910.000  7.6258e+01
  911.000  7.6644e+01
  912.000  7.7032e+01
  913.000  7.7423e+01
  914.000  7.7818e+01
  915.000  7.8215e+01
  916.000  7.8615e+01
  917.000  7.9019e+01
  918.000  7.9425e+01
  919.000  7.9835e+01
  920.000  8.0248e+01
  921.000  8.0664e+01
  922.000  8.1083e+01
  923.000  8.1506e+01
  924.000  8.1931e+01
  925.000  8.2361e+01
  926.000  8.2793e+01
  927.000  8.3229e+01
  928.000  8.3669e+01
  929.000  8.4112e+01
  930.000  8.4558e+01
  931.000  8.5008e+01
  932.000  8.5462e+01
  933.000  8.5919e+01
  934.000  8.6380e+01
  935.000  8.6845e+01
  936.000  8.7313e+01
  937.000  8.7786e+01
  938.000  8.8262e+01
  939.000  8.8742e+01
  940.000  8.9226e+01
  941.000  8.9714e+01
  942.000  9.0205e+01
  943.000  9.0701e+01
  944.000  9.1201e+01
  945.000  9.1706e+01
  946.000  9.2214e+01
  947.000  9.2727e+01
  948.000  9.3244e+01
  949.000  9.3765e+01
  950.000  9.4290e+01
  951.000  9.4820e+01
  952.000  9.5355e+01
  953.000  9.5894e+01
  954.000  9.6438e+01
  955.000  9.6986e+01
  956.000  9.7539e+01
  957.000  9.8097e+01
  958.000  9.8659e+01
  959.000  9.9227e+01
  960.000  9.9799e+01
  961.000  1.0038e+02
  962.000  1.0096e+02
  963.000  1.0155e+02
  964.000  1.0214e+02
  965.000  1.0274e+02
  966.000  1.0334e+02
  967.000  1.0395e+02
  968.000  1.0456e+02
  969.000  1.0518e+02
  970.000  1.0580e+02
  971.000  1.0643e+02
  972.000  1.0707e+02
  973.000  1.0771e+02
  974.000  1.0836e+02
  975.000  1.0901e+02
  976.000  1.0967e+02
  977.000  1.1034e+02
  978.000  1.1101e+02
  979.000  1.1168e+02
  980.000  1.1237e+02
  981.000  1.1306e+02
  982.000  1.1375e+02
  983.000  1.1446e+02
  984.000  1.1517e+02
  985.000  1.1588e+02
  986.000  1.1660e+02
  987.000  1.1733e+02
  988.000  1.1807e+02
  989.000  1.1881e+02
  990.000  1.1956e+02
  991.000  1.2032e+02
  992.000  1.2108e+02
  993.000  1.2186e+02
  994.000  1.2263e+02
  995.000  1.2342e+02
  996.000  1.2422e+02
  997.000  1.2502e+02
  998.000  1.2583e+02
  999.000  1.2664e+02
 1000.000  1.2747e+02
 1001.000  1.2830e+02
 1002.000  1.2915e+02
 1003.000  1.3000e+02
 1004.000  1.3085e+02
 1005.000  1.3172e+02
 1006.000  1.3260e+02
 1007.000  1.3348e+02
 1008.000  1.3438e+02
 1009.000  1.3528e+02
 1010.000  1.3619e+02
 1011.000  1.3711e+02
 1012.000  1.3804e+02
 1013.000  1.3898e+02
 1014.000  1.3993e+02
 1015.000  1.4089e+02
 1016.000  1.4186e+02
 1017.000  1.4283e+02
 1018.000  1.4382e+02
 1019.000  1.4482e+02
 1020.000  1.4583e+02
 1021.000  1.4685e+02
 1022.000  1.4788e+02
 1023.000  1.4893e+02
 1024.000  1.4998e+02
 1025.000  1.5104e+02
 1026.000  1.5212e+02
 1027.000  1.5321e+02
 1028.000  1.5431e+02
 1029.000  1.5542e+02
 1030.000  1.5654e+02
 1031.000  1.5767e+02
 1032.000  1.5882e+02
 1033.000  1.5998e+02
 1034.000  1.6115e+02
 1035.000  1.6234e+02
 1036.000  1.6354e+02
 1037.000  1.6475e+02
 1038.000  1.6598e+02
 1039.000  1.6721e+02
 1040.000  1.6847e+02
 1041.000  1.6973e+02
 1042.000  1.7102e+02
 1043.000  1.7231e+02
 1044.000  1.7362e+02
 1045.000  1.7495e+02
 1046.000  1.7629e+02
 1047.000  1.7765e+02
 1048.000  1.7902e+02
 1049.000  1.8041e+02
 1050.000  1.8181e+02
 1051.000  1.8323e+02
 1052.000  1.8467e+02
 1053.000  1.8613e+02
 1054.000  1.8760e+02
 1055.000  1.8909e+02
 1056.000  1.9060e+02
 1057.000  1.9212e+02
 1058.000  1.9366e+02
 1059.000  1.9523e+02
 1060.000  1.9681e+02
 1061.000  1.9841e+02
 1062.000  2.0003e+02
 1063.000  2.0167e+02
 1064.000  2.0333e+02
 1065.000  2.0501e+02
 1066.000  2.0671e+02
 1067.000  2.0844e+02
 1068.000  2.1018e+02
 1069.000  2.1195e+02
 1070.000  2.1374e+02
 1071.000  2.1555e+02
 1072.000  2.1738e+02
 1073.000  2.1924e+02
 1074.000  2.2113e+02
 1075.000  2.2303e+02
 1076.000  2.2496e+02
 1077.000  2.2692e+02
 1078.000  2.2890e+02
 1079.000  2.3091e+02
 1080.000  2.3295e+02
 1081.000  2.3501e+02
 1082.000  2.3710e+02
 1083.000  2.3922e+02
 1084.000  2.4136e+02
 1085.000  2.4354e+02
 1086.000  2.4574e+02
 1087.000  2.4798e+02
 1088.000  2.5024e+02
 1089.000  2.5254e+02
 1090.000  2.5486e+02
 1091.000  2.5722e+02
 1092.000  2.5962e+02
 1093.000  2.6204e+02
 1094.000  2.6451e+02
 1095.000  2.6700e+02
 1096.000  2.6953e+02
 1097.000  2.7210e+02
 1098.000  2.7470e+02
 1099.000  2.7735e+02
 1100.000  2.8003e+02
 1101.000  2.8274e+02
 1102.000  2.8550e+02
 1103.000  2.8830e+02
 1104.000  2.9114e+02
 1105.000  2.9403e+02
 1106.000  2.9695e+02
 1107.000  2.9992e+02
 1108.000  3.0294e+02
 1109.000  3.0600e+02
 1110.000  3.0910e+02
 1111.000  3.1226e+02
 1112.000  3.1546e+02
 1113.000  3.1871e+02
 1114.000  3.2201e+02
 1115.000  3.2537e+02
 1116.000  3.2877e+02
 1117.000  3.3223e+02
 1118.000  3.3575e+02
 1119.000  3.3932e+02
 1120.000  3.4295e+02
 1121.000  3.4664e+02
 1122.000  3.5038e+02
 1123.000  3.5419e+02
 1124.000  3.5806e+02
 1125.000  3.6199e+02
 1126.000  3.6599e+02
 1127.000  3.7006e+02
 1128.000  3.7419e+02
 1129.000  3.7839e+02
 1130.000  3.8267e+02
 1131.000  3.8702e+02
 1132.000  3.9144e+02
 1133.000  3.9593e+02
 1134.000  4.0051e+02
 1135.000  4.0516e+02
 1136.000  4.0990e+02
 1137.000  4.1472e+02
 1138.000  4.1963e+02
 1139.000  4.2462e+02
 1140.000  4.2970e+02
 1141.000  4.3488e+02
 1142.000  4.4014e+02
 1143.000  4.4551e+02
 1144.000  4.5097e+02
 1145.000  4.5653e+02
 1146.000  4.6220e+02
 1147.000  4.6797e+02
 1148.000  4.7386e+02
 1149.000  4.7985e+02
 1150.000  4.8596e+02
 1151.000  4.9218e+02
 1152.000  4.9853e+02
 1153.000  5.0500e+02
 1154.000  5.1159e+02
 1155.000  5.1831e+02
 1156.000  5.2517e+02
 1157.000  5.3217e+02
 1158.000  5.3930e+02
 1159.000  5.4658e+02
 1160.000  5.5401e+02
 1161.000  5.6159e+02
 1162.000  5.6933e+02
 1163.000  5.7722e+02
 1164.000  5.8528e+02
 1165.000  5.9352e+02
 1166.000  6.0192e+02
 1167.000  6.1051e+02
 1168.000  6.1928e+02
 1169.000  6.2824e+02
 1170.000  6.3740e+02
 1171.000  6.4675e+02
 1172.000  6.5632e+02
 1173.000  6.6610e+02
 1174.000  6.7610e+02
 1175.000  6.8632e+02
 1176.000  6.9678e+02
 1177.000  7.0747e+02
 1178.000  7.1842e+02
 1179.000  7.2962e+02
 1180.000  7.4109e+02
 1181.000  7.5282e+02
 1182.000  7.6484e+02
 1183.000  7.7715e+02
 1184.000  7.8975e+02
 1185.000  8.0266e+02
 1186.000  8.1590e+02
 1187.000  8.2946e+02
 1188.000  8.4336e+02
 1189.000  8.5761e+02
 1190.000  8.7223e+02
 1191.000  8.8722e+02
 1192.000  9.0260e+02
 1193.000  9.1838e+02
 1194.000  9.3458e+02
 1195.000  9.5122e+02
 1196.000  9.6829e+02
 1197.000  9.8584e+02
 1198.000  1.0039e+03
 1199.000  1.0224e+03
 1200.000  1.0414e+03
 1201.000  1.0610e+03
 1202.000  1.0811e+03
 1203.000  1.1018e+03
 1204.000  1.1231e+03
 1205.000  1.1450e+03
 1206.000  1.1676e+03
 1207.000  1.1908e+03
 1208.000  1.2148e+03
 1209.000  1.2394e+03
 1210.000  1.2648e+03
 1211.000  1.2910e+03
 1212.000  1.3181e+03
 1213.000  1.3459e+03
 1214.000  1.3747e+03
 1215.000  1.4044e+03
 1216.000  1.4351e+03
 1217.000  1.4668e+03
 1218.000  1.4995e+03
 1219.000  1.5333e+03
 1220.000  1.5683e+03
 1221.000  1.6045e+03
 1222.000  1.6420e+03
 1223.000  1.6807e+03
 1224.000  1.7209e+03
 1225.000  1.7625e+03
 1226.000  1.8057e+03
 1227.000  1.8504e+03
 1228.000  1.8968e+03
 1229.000  1.9449e+03
 1230.000  1.9949e+03
 1231.000  2.0469e+03
 1232.000  2.1009e+03
 1233.000  2.1570e+03
 1234.000  2.2154e+03
 1235.000  2.2762e+03
 1236.000  2.3395e+03
 1237.000  2.4055e+03
 1238.000  2.4743e+03
 1239.000  2.5461e+03
 1240.000  2.6210e+03
 1241.000  2.6992e+03
 1242.000  2.7810e+03
 1243.000  2.8665e+03
 1244.000  2.9559e+03
 1245.000  3.0496e+03
 1246.000  3.1478e+03
 1247.000  3.2508e+03
 1248.000  3.3588e+03
 1249.000  3.4722e+03
 1250.000  3.5915e+03
 1251.000  3.7169e+03
 1252.000  3.8489e+03
 1253.000  3.9880e+03
 1254.000  4.1347e+03
 1255.000  4.2896e+03
 1256.000  4.4532e+03
 1257.000  4.6262e+03
 1258.000  4.8093e+03
 1259.000  5.0034e+03
 1260.000  5.2093e+03
 1261.000  5.4279e+03
 1262.000  5.6603e+03
 1263.000  5.9078e+03
 1264.000  6.1715e+03
 1265.000  6.4530e+03
 1266.000  6.7537e+03
 1267.000  7.0756e+03
 1268.000  7.4204e+03
 1269.000  7.7905e+03
 1270.000  8.1883e+03
 1271.000  8.6165e+03
 1272.000  9.0783e+03
 1273.000  9.5770e+03
 1274.000  1.0117e+04
 1275.000  1.0702e+04
 1276.000  1.1337e+04
 1277.000  1.2029e+04
 1278.000  1.2783e+04
 1279.000  1.3608e+04
 1280.000  1.4511e+04
 1281.000  1.5502e+04
 1282.000  1.6592e+04
 1283.000  1.7795e+04
 1284.000  1.9125e+04
 1285.000  2.0599e+04
 1286.000  2.2236e+04
 1287.000  2.4060e+04
 1288.000  2.6095e+04
 1289.000  2.8373e+04
 1290.000  3.0926e+04
 1291.000  3.3793e+04
 1292.000  3.7017e+04
 1293.000  4.0644e+04
 1294.000  4.4723e+04
 1295.000  4.9306e+04
 1296.000  5.4438e+04
 1297.000  6.0154e+04
 1298.000  6.6468e+04
 1299.000  7.3358e+04
 1300.000  8.0741e+04
 1301.000  8.8458e+04
 1302.000  9.6239e+04
 1303.000  1.0370e+05
 1304.000  1.1036e+05
 1305.000  1.1565e+05
 1306.000  1.1908e+05
 1307.000  1.2026e+05
 1308.000  1.1906e+05
 1309.000  1.1562e+05
 1310.000  1.1031e+05
 1311.000  1.0365e+05
 1312.000  9.6184e+04
 1313.000  8.8401e+04
 1314.000  8.0687e+04
 1315.000  7.3306e+04
 1316.000  6.6420e+04
 1317.000  6.0110e+04
 1318.000  5.4399e+04
 1319.000  4.9271e+04
 1320.000  4.4692e+04
 1321.000  4.0616e+04
 1322.000  3.6992e+04
 1323.000  3.3771e+04
 1324.000  3.0906e+04
 1325.000  2.8356e+04
 1326.000  2.6080e+04
 1327.000  2.4046e+04
 1328.000  2.2224e+04
 1329.000  2.0588e+04
 1330.000  1.9115e+04
 1331.000  1.7786e+04
 1332.000  1.6584e+04
 1333.000  1.5494e+04
 1334.000  1.4504e+04
 1335.000  1.3601e+04
 1336.000  1.2778e+04
 1337.000  1.2024e+04
 1338.000  1.1333e+04
 1339.000  1.0697e+04
 1340.000  1.0113e+04
 1341.000  9.5733e+03
 1342.000  9.0748e+03
 1343.000  8.6133e+03
 1344.000  8.1853e+03
 1345.000  7.7877e+03
 1346.000  7.4178e+03
 1347.000  7.0732e+03
 1348.000  6.7515e+03
 1349.000  6.4509e+03
 1350.000  6.1696e+03
 1351.000  5.9060e+03
 1352.000  5.6586e+03
 1353.000  5.4263e+03
 1354.000  5.2077e+03
 1355.000  5.0019e+03
 1356.000  4.8080e+03
 1357.000  4.6249e+03
 1358.000  4.4520e+03
 1359.000  4.2884e+03
 1360.000  4.1337e+03
 1361.000  3.9870e+03
 1362.000  3.8480e+03
 1363.000  3.7160e+03
 1364.000  3.5906e+03
 1365.000  3.4714e+03
 1366.000  3.3580e+03
 1367.000  3.2500e+03
 1368.000  3.1471e+03
 1369.000  3.0489e+03
 1370.000  2.9553e+03
 1371.000  2.8658e+03
 1372.000  2.7804e+03
 1373.000  2.6986e+03
 1374.000  2.6204e+03
 1375.000  2.5455e+03
 1376.000  2.4738e+03
 1377.000  2.4050e+03
 1378.000  2.3391e+03
 1379.000  2.2758e+03
 1380.000  2.2150e+03
 1381.000  2.1566e+03
 1382.000  2.1005e+03
 1383.000  2.0465e+03
 1384.000  1.9946e+03
 1385.000  1.9446e+03
 1386.000  1.8964e+03
 1387.000  1.8501e+03
 1388.000  1.8053e+03
 1389.000  1.7622e+03
 1390.000  1.7206e+03
 1391.000  1.6805e+03
 1392.000  1.6417e+03
 1393.000  1.6042e+03
 1394.000  1.5681e+03
 1395.000  1.5331e+03
 1396.000  1.4992e+03
 1397.000  1.4665e+03
 1398.000  1.4348e+03
 1399.000  1.4042e+03
 1400.000  1.3745e+03
 1401.000  1.3457e+03
 1402.000  1.3179e+03
 1403.000  1.2908e+03
 1404.000  1.2646e+03
 1405.000  1.2392e+03
 1406.000  1.2146e+03
 1407.000  1.1906e+03
 1408.000  1.1674e+03
 1409.000  1.1449e+03
 1410.000  1.1229e+03
 1411.000  1.1016e+03
 1412.000  1.0810e+03
 1413.000  1.0608e+03
 1414.000  1.0413e+03
 1415.000  1.0222e+03
 1416.000  1.0037e+03
 1417.000  9.8571e+02
 1418.000  9.6817e+02
 1419.000  9.5109e+02
 1420.000  9.3447e+02
 1421.000  9.1827e+02
 1422.000  9.0249e+02
 1423.000  8.8711e+02
 1424.000  8.7212e+02
 1425.000  8.5751e+02
 1426.000  8.4326e+02
 1427.000  8.2936e+02
 1428.000  8.1580e+02
 1429.000  8.0257e+02
 1430.000  7.8966e+02
 1431.000  7.7706e+02
 1432.000  7.6475e+02
 1433.000  7.5274e+02
 1434.000  7.4100e+02
 1435.000  7.2954e+02
 1436.000  7.1834e+02
 1437.000  7.0740e+02
 1438.000  6.9670e+02
 1439.000  6.8624e+02
 1440.000  6.7602e+02
 1441.000  6.6603e+02
 1442.000  6.5625e+02
 1443.000  6.4669e+02
 1444.000  6.3733e+02
 1445.000  6.2818e+02
 1446.000  6.1922e+02
 1447.000  6.1045e+02
 1448.000  6.0186e+02
 1449.000  5.9346e+02
 1450.000  5.8523e+02
 1451.000  5.7716e+02
 1452.000  5.6927e+02
 1453.000  5.6153e+02
 1454.000  5.5396e+02
 1455.000  5.4653e+02
 1456.000  5.3925e+02
 1457.000  5.3212e+02
 1458.000  5.2512e+02
 1459.000  5.1827e+02
 1460.000  5.1154e+02
 1461.000  5.0495e+02
 1462.000  4.9848e+02
 1463.000  4.9214e+02
 1464.000  4.8591e+02
 1465.000  4.7981e+02
 1466.000  4.7381e+02
 1467.000  4.6793e+02
 1468.000  4.6216e+02
 1469.000  4.5649e+02
 1470.000  4.5093e+02
 1471.000  4.4547e+02
 1472.000  4.4011e+02
 1473.000  4.3484e+02
 1474.000  4.2966e+02
 1475.000  4.2458e+02
 1476.000  4.1959e+02
 1477.000  4.1469e+02
 1478.000  4.0987e+02
 1479.000  4.0513e+02
 1480.000  4.0048e+02
 1481.000  3.9590e+02
 1482.000  3.9140e+02
 1483.000  3.8698e+02
 1484.000  3.8264e+02
 1485.000  3.7836e+02
 1486.000  3.7416e+02
 1487.000  3.7003e+02
 1488.000  3.6596e+02
 1489.000  3.6197e+02
 1490.000  3.5803e+02
 1491.000  3.5416e+02
 1492.000  3.5036e+02
 1493.000  3.4661e+02
 1494.000  3.4292e+02
 1495.000  3.3929e+02
 1496.000  3.3572e+02
 1497.000  3.3221e+02
 1498.000  3.2875e+02
 1499.000  3.2534e+02
 1500.000  3.2199e+02
 1501.000  3.1869e+02
 1502.000  3.1544e+02
 1503.000  3.1223e+02
 1504.000  3.0908e+02
 1505.000  3.0597e+02
 1506.000  3.0291e+02
 1507.000  2.9990e+02
 1508.000  2.9693e+02
 1509.000  2.9400e+02
 1510.000  2.9112e+02
 1511.000  2.8828e+02
 1512.000  2.8548e+02
 1513.000  2.8272e+02
 1514.000  2.8001e+02
 1515.000  2.7733e+02
 1516.000  2.7469e+02
 1517.000  2.7208e+02
 1518.000  2.6951e+02
 1519.000  2.6698e+02
 1520.000  2.6449e+02
 1521.000  2.6203e+02
 1522.000  2.5960e+02
 1523.000  2.5721e+02
 1524.000  2.5485e+02
 1525.000  2.5252e+02
 1526.000  2.5022e+02
 1527.000  2.4796e+02
 1528.000  2.4572e+02
 1529.000  2.4352e+02
 1530.000  2.4135e+02
 1531.000  2.3920e+02
 1532.000  2.3708e+02
 1533.000  2.3499e+02
 1534.000  2.3293e+02
 1535.000  2.3090e+02
 1536.000  2.2889e+02
 1537.000  2.2691e+02
 1538.000  2.2495e+02
 1539.000  2.2302e+02
 1540.000  2.2111e+02
 1541.000  2.1923e+02
 1542.000  2.1737e+02
 1543.000  2.1554e+02
 1544.000  2.1372e+02
 1545.000  2.1194e+02
 1546.000  2.1017e+02
 1547.000  2.0842e+02
 1548.000  2.0670e+02
 1549.000  2.0500e+02
 1550.000  2.0332e+02
 1551.000  2.0166e+02
 1552.000  2.0002e+02
 1553.000  1.9840e+02
 1554.000  1.9680e+02
 1555.000  1.9522e+02
 1556.000  1.9365e+02
 1557.000  1.9211e+02
 1558.000  1.9058e+02
 1559.000  1.8908e+02
 1560.000  1.8759e+02
 1561.000  1.8612e+02
 1562.000  1.8466e+02
 1563.000  1.8322e+02
 1564.000  1.8180e+02
 1565.000  1.8040e+02
 1566.000  1.7901e+02
 1567.000  1.7764e+02
 1568.000  1.7628e+02
 1569.000  1.7494e+02
 1570.000  1.7361e+02
 1571.000  1.7230e+02
 1572.000  1.7101e+02
 1573.000  1.6973e+02
 1574.000  1.6846e+02
 1575.000  1.6721e+02
 1576.000  1.6597e+02
 1577.000  1.6474e+02
 1578.000  1.6353e+02
 1579.000  1.6233e+02
 1580.000  1.6115e+02
 1581.000  1.5997e+02
 1582.000  1.5881e+02
 1583.000  1.5767e+02
 1584.000  1.5653e+02
 1585.000  1.5541e+02
 1586.000  1.5430e+02
 1587.000  1.5320e+02
 1588.000  1.5211e+02
 1589.000  1.5104e+02
 1590.000  1.4997e+02
 1591.000  1.4892e+02
 1592.000  1.4788e+02
 1593.000  1.4685e+02
 1594.000  1.4583e+02
 1595.000  1.4482e+02
 1596.000  1.4382e+02
 1597.000  1.4283e+02
 1598.000  1.4185e+02
 1599.000  1.4088e+02
 1600.000  1.3992e+02
 1601.000  1.3897e+02
 1602.000  1.3803e+02
 1603.000  1.3710e+02
 1604.000  1.3618e+02
 1605.000  1.3527e+02
 1606.000  1.3437e+02
 1607.000  1.3348e+02
 1608.000  1.3259e+02
 1609.000  1.3172e+02
 1610.000  1.3085e+02
 1611.000  1.2999e+02
 1612.000  1.2914e+02
 1613.000  1.2830e+02
 1614.000  1.2746e+02
 1615.000  1.2664e+02
 1616.000  1.2582e+02
 1617.000  1.2501e+02
 1618.000  1.2421e+02
 1619.000  1.2342e+02
 1620.000  1.2263e+02
 1621.000  1.2185e+02
 1622.000  1.2108e+02
 1623.000  1.2031e+02
 1624.000  1.1956e+02
 1625.000  1.1881e+02
 1626.000  1.1806e+02
 1627.000  1.1733e+02
 1628.000  1.1660e+02
 1629.000  1.1588e+02
 1630.000  1.1516e+02
 1631.000  1.1445e+02
 1632.000  1.1375e+02
 1633.000  1.1305e+02
 1634.000  1.1236e+02
 1635.000  1.1168e+02
 1636.000  1.1100e+02
 1637.000  1.1033e+02
 1638.000  1.0967e+02
 1639.000  1.0901e+02
 1640.000  1.0835e+02
 1641.000  1.0771e+02
 1642.000  1.0707e+02
 1643.000  1.0643e+02
 1644.000  1.0580e+02
 1645.000  1.0518e+02
 1646.000  1.0456e+02
 1647.000  1.0394e+02
 1648.000  1.0333e+02
 1649.000  1.0273e+02
 1650.000  1.0213e+02
 1651.000  1.0154e+02
 1652.000  1.0095e+02
 1653.000  1.0037e+02
 1654.000  9.9795e+01
 1655.000  9.9222e+01
 1656.000  9.8655e+01
 1657.000  9.8093e+01
 1658.000  9.7535e+01
 1659.000  9.6982e+01
 1660.000  9.6434e+01
 1661.000  9.5890e+01
 1662.000  9.5351e+01
 1663.000  9.4817e+01
 1664.000  9.4287e+01
 1665.000  9.3761e+01
 1666.000  9.3240e+01
 1667.000  9.2723e+01
 1668.000  9.2210e+01
 1669.000  9.1702e+01
 1670.000  9.1198e+01
 1671.000  9.0698e+01
 1672.000  9.0202e+01
 1673.000  8.9710e+01
 1674.000  8.9222e+01
 1675.000  8.8738e+01
 1676.000  8.8258e+01
 1677.000  8.7782e+01
 1678.000  8.7310e+01
 1679.000  8.6842e+01
 1680.000  8.6377e+01
 1681.000  8.5916e+01
 1682.000  8.5459e+01
 1683.000  8.5005e+01
 1684.000  8.4555e+01
 1685.000  8.4109e+01
 1686.000  8.3666e+01
 1687.000  8.3226e+01
 1688.000  8.2790e+01
 1689.000  8.2358e+01
 1690.000  8.1928e+01
 1691.000  8.1502e+01
 1692.000  8.1080e+01
 1693.000  8.0661e+01
 1694.000  8.0245e+01
 1695.000  7.9832e+01
 1696.000  7.9422e+01
 1697.000  7.9016e+01
 1698.000  7.8612e+01
 1699.000  7.8212e+01
 1700.000  7.7815e+01
 1701.000  7.7420e+01
 1702.000  7.7029e+01
 1703.000  7.6641e+01
 1704.000  7.6256e+01
 1705.000  7.5873e+01
 1706.000  7.5494e+01
 1707.000  7.5117e+01
 1708.000  7.4743e+01
 1709.000  7.4372e+01
 1710.000  7.4003e+01
 1711.000  7.3638e+01
 1712.000  7.3275e+01
 1713.000  7.2914e+01
 1714.000  7.2557e+01
 1715.000  7.2202e+01
 1716.000  7.1849e+01
 1717.000  7.1499e+01
 1718.000  7.1152e+01
 1719.000  7.0807e+01
 1720.000  7.0465e+01
 1721.000  7.0125e+01
 1722.000  6.9788e+01
 1723.000  6.9453e+01
 1724.000  6.9120e+01
 1725.000  6.8790e+01
 1726.000  6.8463e+01
 1727.000  6.8137e+01
 1728.000  6.7814e+01
 1729.000  6.7493e+01
 1730.000  6.7175e+01
 1731.000  6.6858e+01
 1732.000  6.6544e+01
 1733.000  6.6232e+01
 1734.000  6.5923e+01
 1735.000  6.5615e+01
 1736.000  6.5310e+01
 1737.000  6.5007e+01
 1738.000  6.4705e+01
 1739.000  6.4406e+01
 1740.000  6.4109e+01
 1741.000  6.3814e+01
 1742.000  6.3522e+01
 1743.000  6.3231e+01
 1744.000  6.2942e+01
 1745.000  6.2655e+01
 1746.000  6.2370e+01
 1747.000  6.2087e+01
 1748.000  6.1806e+01
 1749.000  6.1526e+01
 1750.000  6.1249e+01
 1751.000  6.0974e+01
 1752.000  6.0700e+01
 1753.000  6.0428e+01
 1754.000  6.0158e+01
 1755.000  5.9890e+01
 1756.000  5.9624e+01
 1757.000  5.9359e+01
 1758.000  5.9097e+01
 1759.000  5.8836e+01
 1760.000  5.8576e+01
 1761.000  5.8319e+01
 1762.000  5.8063e+01
 1763.000  5.7808e+01
 1764.000  5.7556e+01
 1765.000  5.7305e+01
 1766.000  5.7056e+01
 1767.000  5.6808e+01
 1768.000  5.6562e+01
 1769.000  5.6317e+01
 1770.000  5.6074e+01
 1771.000  5.5833e+01
 1772.000  5.5593e+01
 1773.000  5.5355e+01
 1774.000  5.5118e+01
 1775.000  5.4883e+01
 1776.000  5.4649e+01
 1777.000  5.4417e+01
 1778.000  5.4187e+01
 1779.000  5.3957e+01
 1780.000  5.3730e+01
 1781.000  5.3503e+01
 1782.000  5.3278e+01
 1783.000  5.3055e+01
 1784.000  5.2833e+01
 1785.000  5.2612e+01
 1786.000  5.2393e+01
 1787.000  5.2175e+01
 1788.000  5.1958e+01
 1789.000  5.1743e+01
 1790.000  5.1529e+01
 1791.000  5.1316e+01
 1792.000  5.1105e+01
 1793.000  5.0895e+01
 1794.000  5.0686e+01
 1795.000  5.0479e+01
 1796.000  5.0272e+01
 1797.000  5.0068e+01
 1798.000  4.9864e+01
 1799.000  4.9662e+01
 1800.000  4.9460e+01
 1801.000  4.9260e+01
 1802.000  4.9062e+01
 1803.000  4.8864e+01
 1804.000  4.8668e+01
 1805.000  4.8473e+01
 1806.000  4.8279e+01
 1807.000  4.8086e+01
 1808.000  4.7894e+01
 1809.000  4.7703e+01
 1810.000  4.7514e+01
 1811.000  4.7326e+01
 1812.000  4.7139e+01
 1813.000  4.6953e+01
 1814.000  4.6768e+01
 1815.000  4.6584e+01
 1816.000  4.6401e+01
 1817.000  4.6219e+01
 1818.000  4.6039e+01
 1819.000  4.5859e+01
 1820.000  4.5680e+01
 1821.000  4.5503e+01
 1822.000  4.5326e+01
 1823.000  4.5151e+01
 1824.000  4.4977e+01
 1825.000  4.4803e+01
 1826.000  4.4631e+01
 1827.000  4.4459e+01
 1828.000  4.4289e+01
 1829.000  4.4119e+01
 1830.000  4.3951e+01
 1831.000  4.3783e+01
 1832.000  4.3617e+01
 1833.000  4.3451e+01
 1834.000  4.3286e+01
 1835.000  4.3123e+01
 1836.000  4.2960e+01
 1837.000  4.2798e+01
 1838.000  4.2637e+01
 1839.000  4.2477e+01
 1840.000  4.2318e+01
 1841.000  4.2159e+01
 1842.000  4.2002e+01
 1843.000  4.1846e+01
 1844.000  4.1690e+01
 1845.000  4.1535e+01
 1846.000  4.1381e+01
 1847.000  4.1228e+01
 1848.000  4.1076e+01
 1849.000  4.0925e+01
 1850.000  4.0774e+01
 1851.000  4.0624e+01
 1852.000  4.0475e+01
 1853.000  4.0327e+01
 1854.000  4.0180e+01
 1855.000  4.0034e+01
 1856.000  3.9888e+01
 1857.000  3.9743e+01
 1858.000  3.9599e+01
 1859.000  3.9456e+01
 1860.000  3.9313e+01
 1861.000  3.9171e+01
 1862.000  3.9030e+01
 1863.000  3.8890e+01
 1864.000  3.8751e+01
 1865.000  3.8612e+01
 1866.000  3.8474e+01
 1867.000  3.8337e+01
 1868.000  3.8200e+01
 1869.000  3.8065e+01
 1870.000  3.7929e+01
 1871.000  3.7795e+01
 1872.000  3.7661e+01
 1873.000  3.7529e+01
 1874.000  3.7396e+01
 1875.000  3.7265e+01
 1876.000  3.7134e+01
 1877.000  3.7004e+01
 1878.000  3.6874e+01
 1879.000  3.6746e+01
 1880.000  3.6618e+01
 1881.000  3.6490e+01
 1882.000  3.6363e+01
 1883.000  3.6237e+01
 1884.000  3.6112e+01
 1885.000  3.5987e+01
 1886.000  3.5863e+01
 1887.000  3.5739e+01
 1888.000  3.5616e+01
 1889.000  3.5494e+01
 1890.000  3.5372e+01
 1891.000  3.5251e+01
 1892.000  3.5131e+01
 1893.000  3.5011e+01
 1894.000  3.4892e+01
 1895.000  3.4774e+01
 1896.000  3.4656e+01
 1897.000  3.4538e+01
 1898.000  3.4422e+01
 1899.000  3.4305e+01
 1900.000  3.4190e+01
 1901.000  3.4075e+01
 1902.000  3.3961e+01
 1903.000  3.3847e+01
 1904.000  3.3733e+01
 1905.000  3.3621e+01
 1906.000  3.3509e+01
 1907.000  3.3397e+01
 1908.000  3.3286e+01
 1909.000  3.3176e+01
 1910.000  3.3066e+01
 1911.000  3.2956e+01
 1912.000  3.2847e+01
 1913.000  3.2739e+01
 1914.000  3.2631e+01
 1915.000  3.2524e+01
 1916.000  3.2417e+01
 1917.000  3.2311e+01
 1918.000  3.2206e+01
 1919.000  3.2101e+01
 1920.000  3.1996e+01
 1921.000  3.1892e+01
 1922.000  3.1788e+01
 1923.000  3.1685e+01
 1924.000  3.1582e+01
 1925.000  3.1480e+01
 1926.000  3.1379e+01
 1927.000  3.1278e+01
 1928.000  3.1177e+01
 1929.000  3.1077e+01
 1930.000  3.0977e+01
 1931.000  3.0878e+01
 1932.000  3.0779e+01
 1933.000  3.0681e+01
 1934.000  3.0583e+01
 1935.000  3.0486e+01
 1936.000  3.0389e+01
 1937.000  3.0293e+01
 1938.000  3.0197e+01
 1939.000  3.0101e+01
 1940.000  3.0006e+01
 1941.000  2.9912e+01
 1942.000  2.9818e+01
 1943.000  2.9724e+01
 1944.000  2.9631e+01
 1945.000  2.9538e+01
 1946.000  2.9446e+01
 1947.000  2.9354e+01
 1948.000  2.9262e+01
 1949.000  2.9171e+01
 1950.000  2.9081e+01
 1951.000  2.8990e+01
 1952.000  2.8901e+01
 1953.000  2.8811e+01
 1954.000  2.8722e+01
 1955.000  2.8634e+01
 1956.000  2.8546e+01
 1957.000  2.8458e+01
 1958.000  2.8370e+01
 1959.000  2.8284e+01
 1960.000  2.8197e+01
 1961.000  2.8111e+01
 1962.000  2.8025e+01
 1963.000  2.7940e+01
 1964.000  2.7855e+01
 1965.000  2.7770e+01
 1966.000  2.7686e+01
 1967.000  2.7602e+01
 1968.000  2.7519e+01
 1969.000  2.7436e+01
 1970.000  2.7353e+01
 1971.000  2.7271e+01
 1972.000  2.7189e+01
 1973.000  2.7107e+01
 1974.000  2.7026e+01
 1975.000  2.6945e+01
 1976.000  2.6865e+01
 1977.000  2.6785e+01
 1978.000  2.6705e+01
 1979.000  2.6625e+01
 1980.000  2.6546e+01
 1981.000  2.6468e+01
 1982.000  2.6389e+01
 1983.000  2.6311e+01
 1984.000  2.6234e+01
 1985.000  2.6156e+01
 1986.000  2.6079e+01
 1987.000  2.6003e+01
 1988.000  2.5926e+01
 1989.000  2.5851e+01
 1990.000  2.5775e+01
 1991.000  2.5700e+01
 1992.000  2.5625e+01
 1993.000  2.5550e+01
 1994.000  2.5476e+01
 1995.000  2.5402e+01
 1996.000  2.5328e+01
 1997.000  2.5255e+01
 1998.000  2.5182e+01
 1999.000  2.5109e+01
 2000.000  2.5037e+01
 2001.000  2.4964e+01
 2002.000  2.4893e+01
 2003.000  2.4821e+01
 2004.000  2.4750e+01
 2005.000  2.4679e+01
 2006.000  2.4609e+01
 2007.000  2.4538e+01
 2008.000  2.4468e+01
 2009.000  2.4399e+01
 2010.000  2.4329e+01
 2011.000  2.4260e+01
 2012.000  2.4192e+01
 2013.000  2.4123e+01
 2014.000  2.4055e+01
 2015.000  2.3987e+01
 2016.000  2.3920e+01
 2017.000  2.3852e+01
 2018.000  2.3785e+01
 2019.000  2.3718e+01
 2020.000  2.3652e+01
 2021.000  2.3586e+01
 2022.000  2.3520e+01
 2023.000  2.3454e+01
 2024.000  2.3389e+01
 2025.000  2.3324e+01
 2026.000  2.3259e+01
 2027.000  2.3194e+01
 2028.000  2.3130e+01
 2029.000  2.3066e+01
 2030.000  2.3002e+01
 2031.000  2.2939e+01
 2032.000  2.2876e+01
 2033.000  2.2813e+01
 2034.000  2.2750e+01
 2035.000  2.2688e+01
 2036.000  2.2625e+01
 2037.000  2.2563e+01
 2038.000  2.2502e+01
 2039.000  2.2440e+01
 2040.000  2.2379e+01
 2041.000  2.2318e+01
 2042.000  2.2258e+01
 2043.000  2.2197e+01
 2044.000  2.2137e+01
 2045.000  2.2077e+01
 2046.000  2.2017e+01
 2047.000  2.1958e+01
 2048.000  2.1899e+01
 2049.000  2.1840e+01
 2050.000  2.1781e+01
 2051.000  2.1722e+01
 2052.000  2.1664e+01
 2053.000  2.1606e+01
 2054.000  2.1548e+01
 2055.000  2.1491e+01
 2056.000  2.1433e+01
 2057.000  2.1376e+01
 2058.000  2.1319e+01
 2059.000  2.1263e+01
 2060.000  2.1206e+01
 2061.000  2.1150e+01
 2062.000  2.1094e+01
 2063.000  2.1038e+01
 2064.000  2.0983e+01
 2065.000  2.0928e+01
 2066.000  2.0872e+01
 2067.000  2.0818e+01
 2068.000  2.0763e+01
 2069.000  2.0708e+01
 2070.000  2.0654e+01
 2071.000  2.0600e+01
 2072.000  2.0546e+01
 2073.000  2.0493e+01
 2074.000  2.0439e+01
 2075.000  2.0386e+01
 2076.000  2.0333e+01
 2077.000  2.0280e+01
 2078.000  2.0228e+01
 2079.000  2.0176e+01
 2080.000  2.0123e+01
 2081.000  2.0071e+01
 2082.000  2.0020e+01
 2083.000  1.9968e+01
 2084.000  1.9917e+01
 2085.000  1.9866e+01
 2086.000  1.9815e+01
 2087.000  1.9764e+01
 2088.000  1.9713e+01
 2089.000  1.9663e+01
 2090.000  1.9613e+01
 2091.000  1.9563e+01
 2092.000  1.9513e+01
 2093.000  1.9463e+01
 2094.000  1.9414e+01
 2095.000  1.9365e+01
 2096.000  1.9316e+01
 2097.000  1.9267e+01
 2098.000  1.9218e+01
 2099.000  1.9170e+01
 2100.000  1.9121e+01
 2101.000  1.9073e+01
 2102.000  1.9025e+01
 2103.000  1.8977e+01
 2104.000  1.8930e+01
 2105.000  1.8882e+01
 2106.000  1.8835e+01
 2107.000  1.8788e+01
 2108.000  1.8741e+01
 2109.000  1.8695e+01
 2110.000  1.8648e+01
 2111.000  1.8602e+01
 2112.000  1.8556e+01
 2113.000  1.8510e+01
 2114.000  1.8464e+01
 2115.000  1.8418e+01
 2116.000  1.8373e+01
 2117.000  1.8327e+01
 2118.000  1.8282e+01
 2119.000  1.8237e+01
 2120.000  1.8192e+01
 2121.000  1.8148e+01
 2122.000  1.8103e+01
 2123.000  1.8059e+01
 2124.000  1.8015e+01
 2125.000  1.7971e+01
 2126.000  1.7927e+01
 2127.000  1.7883e+01
 2128.000  1.7839e+01
 2129.000  1.7796e+01
 2130.000  1.7753e+01
 2131.000  1.7710e+01
 2132.000  1.7667e+01
 2133.000  1.7624e+01
 2134.000  1.7582e+01
 2135.000  1.7539e+01
 2136.000  1.7497e+01
 2137.000  1.7455e+01
 2138.000  1.7413e+01
 2139.000  1.7371e+01
 2140.000  1.7329e+01
 2141.000  1.7288e+01
 2142.000  1.7246e+01
 2143.000  1.7205e+01
 2144.000  1.7164e+01
 2145.000  1.7123e+01
 2146.000  1.7082e+01
 2147.000  1.7042e+01
 2148.000  1.7001e+01
 2149.000  1.6961e+01
 2150.000  1.6921e+01
 2151.000  1.6881e+01
 2152.000  1.6841e+01
 2153.000  1.6801e+01
 2154.000  1.6761e+01
 2155.000  1.6722e+01
 2156.000  1.6682e+01
 2157.000  1.6643e+01
 2158.000  1.6604e+01
 2159.000  1.6565e+01
 2160.000  1.6526e+01
 2161.000  1.6488e+01
 2162.000  1.6449e+01
 2163.000  1.6411e+01
 2164.000  1.6372e+01
 2165.000  1.6334e+01
 2166.000  1.6296e+01
 2167.000  1.6258e+01
 2168.000  1.6221e+01
 2169.000  1.6183e+01
 2170.000  1.6146e+01
 2171.000  1.6108e+01
 2172.000  1.6071e+01
 2173.000  1.6034e+01
 2174.000  1.5997e+01
 2175.000  1.5960e+01
 2176.000  1.5923e+01
 2177.000  1.5887e+01
 2178.000  1.5850e+01
 2179.000  1.5814e+01
 2180.000  1.5778e+01
 2181.000  1.5742e+01
 2182.000  1.5706e+01
 2183.000  1.5670e+01
 2184.000  1.5634e+01
 2185.000  1.5599e+01
 2186.000  1.5563e+01
 2187.000  1.5528e+01
 2188.000  1.5493e+01
 2189.000  1.5458e+01
 2190.000  1.5423e+01
 2191.000  1.5388e+01
 2192.000  1.5353e+01
 2193.000  1.5318e+01
 2194.000  1.5284e+01
 2195.000  1.5249e+01
 2196.000  1.5215e+01
 2197.000  1.5181e+01
 2198.000  1.5147e+01
 2199.000  1.5113e+01
 2200.000  1.5079e+01
 2201.000  1.5045e+01
 2202.000  1.5012e+01
 2203.000  1.4978e+01
 2204.000  1.4945e+01
 2205.000  1.4912e+01
 2206.000  1.4879e+01
 2207.000  1.4845e+01
 2208.000  1.4813e+01
 2209.000  1.4780e+01
 2210.000  1.4747e+01
 2211.000  1.4714e+01
 2212.000  1.4682e+01
 2213.000  1.4650e+01
 2214.000  1.4617e+01
 2215.000  1.4585e+01
 2216.000  1.4553e+01
 2217.000  1.4521e+01
 2218.000  1.4489e+01
 2219.000  1.4457e+01
 2220.000  1.4426e+01
 2221.000  1.4394e+01
 2222.000  1.4363e+01
 2223.000  1.4331e+01
 2224.000  1.4300e+01
 2225.000  1.4269e+01
 2226.000  1.4238e+01
 2227.000  1.4207e+01
 2228.000  1.4176e+01
 2229.000  1.4146e+01
 2230.000  1.4115e+01
 2231.000  1.4084e+01
 2232.000  1.4054e+01
 2233.000  1.4024e+01
 2234.000  1.3993e+01
 2235.000  1.3963e+01
 2236.000  1.3933e+01
 2237.000  1.3903e+01
 2238.000  1.3873e+01
 2239.000  1.3844e+01
 2240.000  1.3814e+01
 2241.000  1.3784e+01
 2242.000  1.3755e+01
 2243.000  1.3726e+01
 2244.000  1.3696e+01
 2245.000  1.3667e+01
 2246.000  1.3638e+01
 2247.000  1.3609e+01
 2248.000  1.3580e+01
 2249.000  1.3551e+01
 2250.000  1.3523e+01
 2251.000  1.3494e+01
 2252.000  1.3465e+01
 2253.000  1.3437e+01
 2254.000  1.3409e+01
 2255.000  1.3380e+01
 2256.000  1.3352e+01
 2257.000  1.3324e+01
 2258.000  1.3296e+01
 2259.000  1.3268e+01
 2260.000  1.3240e+01
 2261.000  1.3213e+01
 2262.000  1.3185e+01
 2263.000  1.3157e+01
 2264.000  1.3130e+01
 2265.000  1.3103e+01
 2266.000  1.3075e+01
 2267.000  1.3048e+01
 2268.000  1.3021e+01
 2269.000  1.2994e+01
 2270.000  1.2967e+01
 2271.000  1.2940e+01
 2272.000  1.2913e+01
 2273.000  1.2886e+01
 2274.000  1.2860e+01
 2275.000  1.2833e+01
 2276.000  1.2807e+01
 2277.000  1.2780e+01
 2278.000  1.2754e+01
 2279.000  1.2728e+01
 2280.000  1.2702e+01
 2281.000  1.2676e+01
 2282.000  1.2650e+01
 2283.000  1.2624e+01
 2284.000  1.2598e+01
 2285.000  1.2572e+01
 2286.000  1.2546e+01
 2287.000  1.2521e+01
 2288.000  1.2495e+01
 2289.000  1.2470e+01
 2290.000  1.2445e+01
 2291.000  1.2419e+01
 2292.000  1.2394e+01
 2293.000  1.2369e+01
 2294.000  1.2344e+01
 2295.000  1.2319e+01
 2296.000  1.2294e+01
 2297.000  1.2269e+01
 2298.000  1.2245e+01
 2299.000  1.2220e+01
 2300.000  1.2195e+01
 2301.000  1.2171e+01
 2302.000  1.2146e+01
 2303.000  1.2122e+01
 2304.000  1.2098e+01
 2305.000  1.2073e+01
 2306.000  1.2049e+01
 2307.000  1.2025e+01
 2308.000  1.2001e+01
 2309.000  1.1977e+01
 2310.000  1.1953e+01
 2311.000  1.1930e+01
 2312.000  1.1906e+01
 2313.000  1.1882e+01
 2314.000  1.1859e+01
 2315.000  1.1835e+01
 2316.000  1.1812e+01
 2317.000  1.1788e+01
 2318.000  1.1765e+01
 2319.000  1.1742e+01
 2320.000  1.1719e+01
 2321.000  1.1695e+01
 2322.000  1.1672e+01
 2323.000  1.1649e+01
 2324.000  1.1627e+01
 2325.000  1.1604e+01
 2326.000  1.1581e+01
 2327.000  1.1558e+01
 2328.000  1.1536e+01
 2329.000  1.1513e+01
 2330.000  1.1491e+01
 2331.000  1.1468e+01
 2332.000  1.1446e+01
 2333.000  1.1423e+01
 2334.000  1.1401e+01
 2335.000  1.1379e+01
 2336.000  1.1357e+01
 2337.000  1.1335e+01
 2338.000  1.1313e+01
 2339.000  1.1291e+01
 2340.000  1.1269e+01
 2341.000  1.1247e+01
 2342.000  1.1226e+01
 2343.000  1.1204e+01
 2344.000  1.1183e+01
 2345.000  1.1161e+01
 2346.000  1.1140e+01
 2347.000  1.1118e+01
 2348.000  1.1097e+01
 2349.000  1.1076e+01
 2350.000  1.1054e+01
 2351.000  1.1033e+01
 2352.000  1.1012e+01
 2353.000  1.0991e+01
 2354.000  1.0970e+01
 2355.000  1.0949e+01
 2356.000  1.0928e+01
 2357.000  1.0908e+01
 2358.000  1.0887e+01
 2359.000  1.0866e+01
 2360.000  1.0846e+01
 2361.000  1.0825e+01
 2362.000  1.0805e+01
 2363.000  1.0784e+01
 2364.000  1.0764e+01
 2365.000  1.0743e+01
 2366.000  1.0723e+01
 2367.000  1.0703e+01
 2368.000  1.0683e+01
 2369.000  1.0662e+01
 2370.000  1.0642e+01
 2371.000  1.0622e+01
 2372.000  1.0602e+01
 2373.000  1.0582e+01
 2374.000  1.0563e+01
 2375.000  1.0543e+01
 2376.000  1.0523e+01
 2377.000  1.0503e+01
 2378.000  1.0484e+01
 2379.000  1.0464e+01
 2380.000  1.0445e+01
 2381.000  1.0425e+01
 2382.000  1.0406e+01
 2383.000  1.0387e+01
 2384.000  1.0367e+01
 2385.000  1.0348e+01
 2386.000  1.0329e+01
 2387.000  1.0310e+01
 2388.000  1.0291e+01
 2389.000  1.0272e+01
 2390.000  1.0253e+01
 2391.000  1.0234e+01
 2392.000  1.0215e+01
 2393.000  1.0196e+01
 2394.000  1.0177e+01
 2395.000  1.0159e+01
 2396.000  1.0140e+01
 2397.000  1.0122e+01
 2398.000  1.0103e+01
 2399.000  1.0084e+01
 2400.000  1.0066e+01
 2401.000  1.0048e+01
 2402.000  1.0029e+01
 2403.000  1.0011e+01
 2404.000  9.9927e+00
 2405.000  9.9746e+00
 2406.000  9.9564e+00
 2407.000  9.9383e+00
 2408.000  9.9203e+00
 2409.000  9.9023e+00
 2410.000  9.8843e+00
 2411.000  9.8664e+00
 2412.000  9.8486e+00
 2413.000  9.8308e+00
 2414.000  9.8130e+00
 2415.000  9.7953e+00
 2416.000  9.7777e+00
 2417.000  9.7601e+00
 2418.000  9.7425e+00
 2419.000  9.7250e+00
 2420.000  9.7075e+00
 2421.000  9.6901e+00
 2422.000  9.6727e+00
 2423.000  9.6554e+00
 2424.000  9.6381e+00
 2425.000  9.6209e+00
 2426.000  9.6037e+00
 2427.000  9.5866e+00
 2428.000  9.5695e+00
 2429.000  9.5524e+00
 2430.000  9.5354e+00
 2431.000  9.5185e+00
 2432.000  9.5015e+00
 2433.000  9.4847e+00
 2434.000  9.4679e+00
 2435.000  9.4511e+00
 2436.000  9.4343e+00
 2437.000  9.4177e+00
 2438.000  9.4010e+00
 2439.000  9.3844e+00
 2440.000  9.3678e+00
 2441.000  9.3513e+00
 2442.000  9.3349e+00
 2443.000  9.3184e+00
 2444.000  9.3021e+00
 2445.000  9.2857e+00
 2446.000  9.2694e+00
 2447.000  9.2532e+00
 2448.000  9.2370e+00
 2449.000  9.2208e+00
 2450.000  9.2047e+00
 2451.000  9.1886e+00
 2452.000  9.1725e+00
 2453.000  9.1565e+00
 2454.000  9.1406e+00
 2455.000  9.1247e+00
 2456.000  9.1088e+00
 2457.000  9.0930e+00
 2458.000  9.0772e+00
 2459.000  9.0614e+00
 2460.000  9.0457e+00
 2461.000  9.0300e+00
 2462.000  9.0144e+00
 2463.000  8.9988e+00
 2464.000  8.9833e+00
 2465.000  8.9678e+00
 2466.000  8.9523e+00
 2467.000  8.9369e+00
 2468.000  8.9215e+00
 2469.000  8.9061e+00
 2470.000  8.8908e+00
 2471.000  8.8756e+00
 2472.000  8.8603e+00
 2473.000  8.8451e+00
 2474.000  8.8300e+00
 2475.000  8.8149e+00
 2476.000  8.7998e+00
 2477.000  8.7848e+00
 2478.000  8.7698e+00
 2479.000  8.7548e+00
 2480.000  8.7399e+00
 2481.000  8.7250e+00
 2482.000  8.7102e+00
 2483.000  8.6954e+00
 2484.000  8.6806e+00
 2485.000  8.6659e+00
 2486.000  8.6512e+00
 2487.000  8.6365e+00
 2488.000  8.6219e+00
 2489.000  8.6073e+00
 2490.000  8.5928e+00
 2491.000  8.5783e+00
 2492.000  8.5638e+00
 2493.000  8.5494e+00
 2494.000  8.5350e+00
 2495.000  8.5206e+00
 2496.000  8.5063e+00
 2497.000  8.4920e+00
 2498.000  8.4777e+00
 2499.000  8.4635e+00
 2500.000  8.4493e+00
